image1,image2,pos,corr_resp,c_ic,trials.thisRepN,trials.thisTrialN,trials.thisN,trials.thisIndex,thisRow.t,notes,instructions.started,text.started,key_resp_2.started,instructions.stopped,key_resp_2.keys,key_resp_2.rt,key_resp_2.duration,trial.started,fixation.started,image.started,image_2.started,image.stopped,image_2.stopped,cue.started,cue.stopped,key_resp.started,trial.stopped,key_resp.keys,key_resp.corr,key_resp.rt,key_resp.duration,thankyou.started,text_2.started,text_2.stopped,thankyou.stopped,participant,session,date,expName,psychopyVersion,frameRate,expStart,
,,,,,,,,,,,0.017036700002790894,0.06745159999991301,0.06745159999991301,8.964218100001744,space,8.88560320000397,None,,,,,,,,,,,,,,,,,,,1,001,2023-11-09_16h16.32.781,solo,2023.2.2,60.10081310190574,2023-11-09 16h16.43.529472 +0530,
C:\Users\twara\Downloads\Happy Emoji [Download iPhone Emojis].png,C:\Users\twara\Downloads\Confused Emoji [Download iPhone Emojis].png,0.3,up,c,0,0,0,0,9.044962799998757,,,,,,,,,8.998549700001604,9.044962799998757,9.51208349999797,9.51208349999797,10.012248500002897,10.012248500002897,10.278864200001408,10.678910599999654,10.678910599999654,11.53166059999785,up,1,0.8491251000014017,None,,,,,1,001,2023-11-09_16h16.32.781,solo,2023.2.2,60.10081310190574,2023-11-09 16h16.43.529472 +0530,
C:\Users\twara\Downloads\Smiling Emoji [Download IOS Smiling Emojis].png,C:\Users\twara\Downloads\Neutral Emoji [Free Download iPhone Emojis].png,0.3,up,c,0,1,1,1,11.5955030000041,,,,,,,,,11.535808300002827,11.5955030000041,12.045825400004105,12.045825400004105,12.545575000003737,12.545575000003737,12.845578400003433,13.245509100001073,13.245509100001073,13.74701880000066,up,1,0.4911768000019947,None,,,,,1,001,2023-11-09_16h16.32.781,solo,2023.2.2,60.10081310190574,2023-11-09 16h16.43.529472 +0530,
C:\Users\twara\Downloads\Neutral Emoji [Free Download iPhone Emojis].png,C:\Users\twara\Downloads\Smiling Emoji [Download IOS Smiling Emojis].png,-0.3,down,c,0,2,2,25,13.79586019999988,,,,,,,,,13.74801380000281,13.79586019999988,14.26259559999744,14.26259559999744,14.761992100000498,14.761992100000498,15.062492700002622,15.461936600004265,15.461936600004265,15.63011859999824,down,1,0.16133099999569822,None,,,,,1,001,2023-11-09_16h16.32.781,solo,2023.2.2,60.10081310190574,2023-11-09 16h16.43.529472 +0530,
C:\Users\twara\Downloads\Hugging Emoji [Download iPhone Emojis].png,C:\Users\twara\Downloads\Worried Emoji [Free Download IOS Emojis].png,-0.3,down,ic,0,3,3,13,15.69539149999764,,,,,,,,,15.631027800001903,15.69539149999764,16.14600490000157,16.14600490000157,16.64821810000285,16.64821810000285,16.94563819999894,17.345538400004443,17.345538400004443,17.46469739999884,down,1,0.11555550000048243,None,,,,,1,001,2023-11-09_16h16.32.781,solo,2023.2.2,60.10081310190574,2023-11-09 16h16.43.529472 +0530,
C:\Users\twara\Downloads\Expressionless Emoji [Free Download IOS Emojis].png,C:\Users\twara\Downloads\Smiling With Closed Eyes Emoji [Free Download IOS Emojis].png,-0.3,down,c,0,4,4,26,17.528891800000565,,,,,,,,,17.465691900004458,17.528891800000565,17.979036500000802,17.979036500000802,18.478887199999008,18.478887199999008,18.778824000000895,19.17883950000396,19.17883950000396,19.230730600000243,down,1,0.04651030000241008,None,,,,,1,001,2023-11-09_16h16.32.781,solo,2023.2.2,60.10081310190574,2023-11-09 16h16.43.529472 +0530,
C:\Users\twara\Downloads\Very Happy Emoji [Free Download IOS Emojis].png,C:\Users\twara\Downloads\Worried Emoji [Free Download IOS Emojis].png,0.3,up,c,0,5,5,3,19.29485030000069,,,,,,,,,19.231737399997655,19.29485030000069,19.746093200003088,19.746093200003088,20.24545699999726,20.24545699999726,20.545676900001126,20.945634900002915,20.945634900002915,20.98014829999738,up,1,0.01728759999969043,None,,,,,1,001,2023-11-09_16h16.32.781,solo,2023.2.2,60.10081310190574,2023-11-09 16h16.43.529472 +0530,
C:\Users\twara\Downloads\Worried Emoji [Free Download IOS Emojis].png,C:\Users\twara\Downloads\Very Happy Emoji [Free Download IOS Emojis].png,-0.3,down,c,0,6,6,27,21.02804710000055,,,,,,,,,20.98096760000044,21.02804710000055,21.495846800004074,21.495846800004074,21.995177800003148,21.995177800003148,22.295412500003295,22.69532050000271,22.69532050000271,22.746763299997838,down,1,0.04010589999961667,None,,,,,1,001,2023-11-09_16h16.32.781,solo,2023.2.2,60.10081310190574,2023-11-09 16h16.43.529472 +0530,
C:\Users\twara\Downloads\Very Happy Emoji [Free Download IOS Emojis].png,C:\Users\twara\Downloads\Worried Emoji [Free Download IOS Emojis].png,-0.3,down,ic,0,7,7,11,22.79446299999836,,,,,,,,,22.747580499999458,22.79446299999836,23.26241590000427,23.26241590000427,23.762421600004018,23.762421600004018,24.062249800001155,24.46224439999787,24.46224439999787,24.49687830000039,down,1,0.022717300002113916,None,,,,,1,001,2023-11-09_16h16.32.781,solo,2023.2.2,60.10081310190574,2023-11-09 16h16.43.529472 +0530,
C:\Users\twara\Downloads\Hugging Emoji [Download iPhone Emojis].png,C:\Users\twara\Downloads\Worried Emoji [Free Download IOS Emojis].png,0.3,up,c,0,8,8,5,24.562149400000635,,,,,,,,,24.497842800003127,24.562149400000635,25.015273099998012,25.015273099998012,25.528719300004013,25.528719300004013,25.81276120000257,26.212148999999044,26.212148999999044,26.24675109999953,up,1,0.021454299996548798,None,,,,,1,001,2023-11-09_16h16.32.781,solo,2023.2.2,60.10081310190574,2023-11-09 16h16.43.529472 +0530,
C:\Users\twara\Downloads\Slightly Smiling Emoji [Free Download IOS Emojis].png,C:\Users\twara\Downloads\Neutral Emoji [Free Download iPhone Emojis].png,-0.3,down,ic,0,9,9,12,26.312759699998423,,,,,,,,,26.24768580000091,26.312759699998423,26.762213399997563,26.762213399997563,27.261912000001757,27.261912000001757,27.562052400004177,27.96217610000167,27.96217610000167,28.13089310000214,down,1,0.1642340999969747,None,,,,,1,001,2023-11-09_16h16.32.781,solo,2023.2.2,60.10081310190574,2023-11-09 16h16.43.529472 +0530,
C:\Users\twara\Downloads\Blushed Smiling Emoji [Free Download IOS Emojis].png,C:\Users\twara\Downloads\Confused Emoji [Download iPhone Emojis].png,-0.3,down,ic,0,10,10,14,28.19526130000304,,,,,,,,,28.131888000003528,28.19526130000304,28.64542100000108,28.64542100000108,29.145199099999445,29.145199099999445,29.44562240000232,29.845388699999603,29.845388699999603,37.646812700004375,down,1,7.795878899996751,None,,,,,1,001,2023-11-09_16h16.32.781,solo,2023.2.2,60.10081310190574,2023-11-09 16h16.43.529472 +0530,
C:\Users\twara\Downloads\Neutral Emoji [Free Download iPhone Emojis].png,C:\Users\twara\Downloads\Slightly Smiling Emoji [Free Download IOS Emojis].png,0.3,up,ic,0,11,11,20,37.6949128999986,,,,,,,,,37.64786029999959,37.6949128999986,38.162119300002814,38.162119300002814,38.661723999997776,38.661723999997776,38.96193840000342,39.36191910000343,39.36191910000343,39.48004129999754,up,1,0.10706149999896297,None,,,,,1,001,2023-11-09_16h16.32.781,solo,2023.2.2,60.10081310190574,2023-11-09 16h16.43.529472 +0530,
C:\Users\twara\Downloads\Confused Emoji [Download iPhone Emojis].png,C:\Users\twara\Downloads\Blushed Smiling Emoji [Free Download IOS Emojis].png,-0.3,down,c,0,12,12,30,39.52835050000431,,,,,,,,,39.48104079999757,39.52835050000431,39.99583970000094,39.99583970000094,40.49540089999937,40.49540089999937,40.79509010000038,41.195068599998194,41.195068599998194,41.24713139999949,down,1,0.046549899998353794,None,,,,,1,001,2023-11-09_16h16.32.781,solo,2023.2.2,60.10081310190574,2023-11-09 16h16.43.529472 +0530,
C:\Users\twara\Downloads\Worried Emoji [Free Download IOS Emojis].png,C:\Users\twara\Downloads\Hugging Emoji [Download iPhone Emojis].png,0.3,up,ic,0,13,13,21,41.29458660000091,,,,,,,,,41.24812530000054,41.29458660000091,41.76205679999839,41.76205679999839,42.261945999998716,42.261945999998716,42.56191100000433,42.96166660000017,42.96166660000017,44.93065390000265,up,1,1.9646812999999383,None,,,,,1,001,2023-11-09_16h16.32.781,solo,2023.2.2,60.10081310190574,2023-11-09 16h16.43.529472 +0530,
C:\Users\twara\Downloads\Smiling Emoji [Download IOS Smiling Emojis].png,C:\Users\twara\Downloads\Neutral Emoji [Free Download iPhone Emojis].png,-0.3,down,ic,0,14,14,9,44.97798899999907,,,,,,,,,44.93165340000269,44.97798899999907,45.44537159999891,45.44537159999891,45.94519630000286,45.94519630000286,46.24500919999991,46.64502770000399,46.64502770000399,46.72990530000243,down,1,0.06796839999879012,None,,,,,1,001,2023-11-09_16h16.32.781,solo,2023.2.2,60.10081310190574,2023-11-09 16h16.43.529472 +0530,
C:\Users\twara\Downloads\Worried Emoji [Free Download IOS Emojis].png,C:\Users\twara\Downloads\Hugging Emoji [Download iPhone Emojis].png,-0.3,down,c,0,15,15,29,46.77790939999977,,,,,,,,,46.73069720000058,46.77790939999977,47.24524489999749,47.24524489999749,47.74496730000101,47.74496730000101,48.045084999997925,48.44553409999935,48.44553409999935,50.629593400000886,down,1,2.174800499997218,None,,,,,1,001,2023-11-09_16h16.32.781,solo,2023.2.2,60.10081310190574,2023-11-09 16h16.43.529472 +0530,
C:\Users\twara\Downloads\Confused Emoji [Download iPhone Emojis].png,C:\Users\twara\Downloads\Blushed Smiling Emoji [Free Download IOS Emojis].png,0.3,up,ic,0,16,16,22,50.6779028000019,,,,,,,,,50.6305971000038,50.6779028000019,51.145286099999794,51.145286099999794,51.64503839999816,51.64503839999816,51.94529709999915,52.34510099999898,52.34510099999898,52.37961989999894,up,1,0.017791099999158178,None,,,,,1,001,2023-11-09_16h16.32.781,solo,2023.2.2,60.10081310190574,2023-11-09 16h16.43.529472 +0530,
C:\Users\twara\Downloads\Tears Emoji [Free Download iPhone Emojis in PNG].png,C:\Users\twara\Downloads\Expressionless Emoji [Free Download IOS Emojis].png,-0.3,down,ic,0,17,17,15,52.444898900001135,,,,,,,,,52.38060480000422,52.444898900001135,52.89517180000257,52.89517180000257,53.39507479999884,53.39507479999884,53.69491469999775,54.09480800000165,54.09480800000165,56.512964000001375,down,1,2.4124257000003126,None,,,,,1,001,2023-11-09_16h16.32.781,solo,2023.2.2,60.10081310190574,2023-11-09 16h16.43.529472 +0530,
C:\Users\twara\Downloads\Tears Emoji [Free Download iPhone Emojis in PNG].png,C:\Users\twara\Downloads\Expressionless Emoji [Free Download IOS Emojis].png,0.3,up,c,0,18,18,7,56.56035030000203,,,,,,,,,56.51381550000224,56.56035030000203,57.02861850000045,57.02861850000045,57.52836869999737,57.52836869999737,57.828058999999485,58.22818450000341,58.22818450000341,58.3633101000014,up,1,0.13360929999907967,None,,,,,1,001,2023-11-09_16h16.32.781,solo,2023.2.2,60.10081310190574,2023-11-09 16h16.43.529472 +0530,
C:\Users\twara\Downloads\Smiling With Closed Eyes Emoji [Free Download IOS Emojis].png,C:\Users\twara\Downloads\Expressionless Emoji [Free Download IOS Emojis].png,-0.3,down,ic,0,19,19,10,58.41132430000289,,,,,,,,,58.36433920000127,58.41132430000289,58.87871950000408,58.87871950000408,59.378272200003266,59.378272200003266,59.67809520000446,60.11147460000211,60.11147460000211,61.9464455999987,down,1,1.8191126999954577,None,,,,,1,001,2023-11-09_16h16.32.781,solo,2023.2.2,60.10081310190574,2023-11-09 16h16.43.529472 +0530,
C:\Users\twara\Downloads\Neutral Emoji [Free Download iPhone Emojis].png,C:\Users\twara\Downloads\Slightly Smiling Emoji [Free Download IOS Emojis].png,-0.3,down,c,0,20,20,28,61.99452040000324,,,,,,,,,61.94739159999881,61.99452040000324,62.46178379999765,62.46178379999765,62.96108880000247,62.96108880000247,63.261722800001735,63.66132939999807,63.66132939999807,63.762910999997985,down,1,0.08803169999737293,None,,,,,1,001,2023-11-09_16h16.32.781,solo,2023.2.2,60.10081310190574,2023-11-09 16h16.43.529472 +0530,
C:\Users\twara\Downloads\Worried Emoji [Free Download IOS Emojis].png,C:\Users\twara\Downloads\Very Happy Emoji [Free Download IOS Emojis].png,0.3,up,ic,0,21,21,19,63.81109709999873,,,,,,,,,63.76390309999988,63.81109709999873,64.27826130000176,64.27826130000176,64.77852549999807,64.77852549999807,65.07808710000245,65.47803900000144,65.47803900000144,67.42997879999893,up,1,1.948187299996789,None,,,,,1,001,2023-11-09_16h16.32.781,solo,2023.2.2,60.10081310190574,2023-11-09 16h16.43.529472 +0530,
C:\Users\twara\Downloads\Smiling With Closed Eyes Emoji [Free Download IOS Emojis].png,C:\Users\twara\Downloads\Expressionless Emoji [Free Download IOS Emojis].png,0.3,up,c,0,22,22,2,67.47682899999927,,,,,,,,,67.43090820000361,67.47682899999927,67.94488770000316,67.94488770000316,68.44453970000177,68.44453970000177,68.74463010000181,69.14456950000022,69.14456950000022,69.22930340000312,up,1,0.0779495999959181,None,,,,,1,001,2023-11-09_16h16.32.781,solo,2023.2.2,60.10081310190574,2023-11-09 16h16.43.529472 +0530,
C:\Users\twara\Downloads\Confused Emoji [Download iPhone Emojis].png,C:\Users\twara\Downloads\Happy Emoji [Download iPhone Emojis].png,0.3,up,ic,0,23,23,16,69.27714930000366,,,,,,,,,69.23021220000373,69.27714930000366,69.74483830000099,69.74483830000099,70.24473849999777,70.24473849999777,70.54452350000065,70.94460609999805,70.94460609999805,71.02937620000012,up,1,0.07436890000099083,None,,,,,1,001,2023-11-09_16h16.32.781,solo,2023.2.2,60.10081310190574,2023-11-09 16h16.43.529472 +0530,
C:\Users\twara\Downloads\Expressionless Emoji [Free Download IOS Emojis].png,C:\Users\twara\Downloads\Tears Emoji [Free Download iPhone Emojis in PNG].png,-0.3,down,c,0,24,24,31,71.07758009999816,,,,,,,,,71.03045959999872,71.07758009999816,71.54481420000229,71.54481420000229,72.04502209999919,72.04502209999919,72.34496650000074,72.74450660000002,72.74450660000002,73.56279740000173,down,1,0.8037022999997134,None,,,,,1,001,2023-11-09_16h16.32.781,solo,2023.2.2,60.10081310190574,2023-11-09 16h16.43.529472 +0530,
C:\Users\twara\Downloads\Neutral Emoji [Free Download iPhone Emojis].png,C:\Users\twara\Downloads\Smiling Emoji [Download IOS Smiling Emojis].png,0.3,up,ic,0,25,25,17,73.6284771999999,,,,,,,,,73.56361070000276,73.6284771999999,74.07815230000415,74.07815230000415,74.57795479999913,74.57795479999913,74.8779446999979,75.27792670000053,75.27792670000053,76.8627822999988,up,1,1.5713308000049437,None,,,,,1,001,2023-11-09_16h16.32.781,solo,2023.2.2,60.10081310190574,2023-11-09 16h16.43.529472 +0530,
C:\Users\twara\Downloads\Blushed Smiling Emoji [Free Download IOS Emojis].png,C:\Users\twara\Downloads\Confused Emoji [Download iPhone Emojis].png,0.3,up,c,0,26,26,6,76.92765109999891,,,,,,,,,76.86379770000349,76.92765109999891,77.37827520000428,77.37827520000428,77.8780035000018,77.8780035000018,78.17793479999818,78.57777989999886,78.57777989999886,81.395483100001,up,1,2.80599649999931,None,,,,,1,001,2023-11-09_16h16.32.781,solo,2023.2.2,60.10081310190574,2023-11-09 16h16.43.529472 +0530,
C:\Users\twara\Downloads\Slightly Smiling Emoji [Free Download IOS Emojis].png,C:\Users\twara\Downloads\Neutral Emoji [Free Download iPhone Emojis].png,0.3,up,c,0,27,27,4,81.44409989999986,,,,,,,,,81.39609490000294,81.44409989999986,81.91117559999839,81.91117559999839,82.41101360000175,82.41101360000175,82.71111940000264,83.11091879999731,83.11091879999731,83.21243340000365,up,1,0.08942869999737013,None,,,,,1,001,2023-11-09_16h16.32.781,solo,2023.2.2,60.10081310190574,2023-11-09 16h16.43.529472 +0530,
C:\Users\twara\Downloads\Confused Emoji [Download iPhone Emojis].png,C:\Users\twara\Downloads\Happy Emoji [Download iPhone Emojis].png,-0.3,down,c,0,28,28,24,83.26090500000282,,,,,,,,,83.2134550999981,83.26090500000282,83.72848410000006,83.72848410000006,84.24460589999944,84.24460589999944,84.52768199999991,84.92774970000028,84.92774970000028,86.02914430000237,down,1,1.0914272999943933,None,,,,,1,001,2023-11-09_16h16.32.781,solo,2023.2.2,60.10081310190574,2023-11-09 16h16.43.529472 +0530,
C:\Users\twara\Downloads\Expressionless Emoji [Free Download IOS Emojis].png,C:\Users\twara\Downloads\Smiling With Closed Eyes Emoji [Free Download IOS Emojis].png,0.3,up,ic,0,29,29,18,86.07636749999801,,,,,,,,,86.03011870000046,86.07636749999801,86.54487810000137,86.54487810000137,87.04467300000397,87.04467300000397,87.34450479999941,87.74430179999763,87.74430179999763,87.84595880000415,up,1,0.08469270000205142,None,,,,,1,001,2023-11-09_16h16.32.781,solo,2023.2.2,60.10081310190574,2023-11-09 16h16.43.529472 +0530,
C:\Users\twara\Downloads\Happy Emoji [Download iPhone Emojis].png,C:\Users\twara\Downloads\Confused Emoji [Download iPhone Emojis].png,-0.3,down,ic,0,30,30,8,87.89336519999779,,,,,,,,,87.847102300002,87.89336519999779,88.36112610000418,88.36112610000418,88.86110030000418,88.86110030000418,89.16092970000318,89.56107530000008,89.56107530000008,89.64604220000183,down,1,0.07594750000134809,None,,,,,1,001,2023-11-09_16h16.32.781,solo,2023.2.2,60.10081310190574,2023-11-09 16h16.43.529472 +0530,
C:\Users\twara\Downloads\Expressionless Emoji [Free Download IOS Emojis].png,C:\Users\twara\Downloads\Tears Emoji [Free Download iPhone Emojis in PNG].png,0.3,up,ic,0,31,31,23,89.6939521000022,,,,,,,,,89.64703949999966,89.6939521000022,90.16118860000279,90.16118860000279,90.66093209999963,90.66093209999963,90.96123570000054,91.36094740000408,91.36094740000408,92.84585920000245,up,1,1.478303899995808,None,,,,,1,001,2023-11-09_16h16.32.781,solo,2023.2.2,60.10081310190574,2023-11-09 16h16.43.529472 +0530,
,,,,,,,,,,,,,,,,,,,,,,,,,,,,,,,,92.84641170000396,92.86061680000421,93.86094949999824,93.8454172999991,,,,,,,,
