image1,image2,pos,corr_resp,c_ic,trials.thisRepN,trials.thisTrialN,trials.thisN,trials.thisIndex,thisRow.t,notes,instructions.started,text.started,key_resp_2.started,instructions.stopped,key_resp_2.keys,key_resp_2.rt,key_resp_2.duration,trial.started,fixation.started,cue.started,cue_1.started,cue.stopped,cue_1.stopped,probe.started,key_resp.started,probe.stopped,trial.stopped,key_resp.keys,key_resp.corr,key_resp.rt,key_resp.duration,thankyou.started,text_2.started,text_2.stopped,thankyou.stopped,participant,session,date,expName,psychopyVersion,frameRate,expStart,
,,,,,,,,,,,0.056752299999061506,0.07346440000037546,0.07346440000037546,1.5388824000001478,space,1.4520838000025833,None,,,,,,,,,,,,,,,,,,,4,001,2023-11-17_15h53.45.747,solo,2023.2.2,60.04091187739877,2023-11-17 15h53.59.642674 +0530,
C:\Users\twara\Downloads\Expressionless Emoji [Free Download IOS Emojis].png,C:\Users\twara\Downloads\Blushed Smiling Emoji [Free Download IOS Emojis].png,0.3,up,ic,0,0,0,22,1.620321899998089,,,,,,,,,1.5598408000005293,1.620321899998089,2.0536169999977574,2.0536169999977574,2.553648400000384,2.553648400000384,2.8553866000002017,3.0381285000003118,3.2709299999987707,3.6558554000002914,up,1,0.6118944000008923,None,,,,,4,001,2023-11-17_15h53.45.747,solo,2023.2.2,60.04091187739877,2023-11-17 15h53.59.642674 +0530,
C:\Users\twara\Downloads\Confused Emoji [Download iPhone Emojis].png,C:\Users\twara\Downloads\Happy Emoji [Download iPhone Emojis].png,-0.3,down,c,0,1,1,24,3.7196710999996867,,,,,,,,,3.6573310999992827,3.7196710999996867,4.170779899999616,4.170779899999616,4.671128599999065,4.671128599999065,4.971376599998621,5.171503099998517,5.371148099999118,5.758067399998254,down,1,0.5807148999992933,None,,,,,4,001,2023-11-17_15h53.45.747,solo,2023.2.2,60.04091187739877,2023-11-17 15h53.59.642674 +0530,
C:\Users\twara\Downloads\Happy Emoji [Download iPhone Emojis].png,C:\Users\twara\Downloads\Confused Emoji [Download iPhone Emojis].png,0.3,up,c,0,2,2,0,5.803287599999749,,,,,,,,,5.758905200000299,5.803287599999749,6.27164780000021,6.27164780000021,6.770488399997703,6.770488399997703,7.071263499998167,7.270689299999503,7.4710040999998455,7.789677400000073,up,1,0.5024802000007185,None,,,,,4,001,2023-11-17_15h53.45.747,solo,2023.2.2,60.04091187739877,2023-11-17 15h53.59.642674 +0530,
C:\Users\twara\Downloads\Confused Emoji [Download iPhone Emojis].png,C:\Users\twara\Downloads\Laughing Emoji [Free Download IOS Emojis].png,-0.3,down,c,0,3,3,28,7.852748900000734,,,,,,,,,7.790819999998348,7.852748900000734,8.305042100000719,8.305042100000719,8.804175099998247,8.804175099998247,9.104284799999732,9.304478300000483,9.504445299997315,9.872927000000345,down,1,0.5540449999971315,None,,,,,4,001,2023-11-17_15h53.45.747,solo,2023.2.2,60.04091187739877,2023-11-17 15h53.59.642674 +0530,
C:\Users\twara\Downloads\Worried Emoji [Free Download IOS Emojis].png,C:\Users\twara\Downloads\Very Happy Emoji [Free Download IOS Emojis].png,0.3,up,ic,0,4,4,19,9.936642099997698,,,,,,,,,9.873679399999673,9.936642099997698,10.388122199998179,10.388122199998179,10.903927499999554,10.903927499999554,11.187679499998922,11.387369899999612,11.587330199999997,11.73928579999847,up,1,0.3495617000007769,None,,,,,4,001,2023-11-17_15h53.45.747,solo,2023.2.2,60.04091187739877,2023-11-17 15h53.59.642674 +0530,
C:\Users\twara\Downloads\Smiling Emoji [Download IOS Smiling Emojis].png,C:\Users\twara\Downloads\Neutral Emoji [Free Download iPhone Emojis].png,-0.3,down,ic,0,5,5,9,11.805227199998626,,,,,,,,,11.73963879999792,11.805227199998626,12.253836399999273,12.253836399999273,12.753763699998672,12.753763699998672,13.05341050000061,13.253813999999693,13.45316869999806,13.487639200000558,down,1,0.2204649999985122,None,,,,,4,001,2023-11-17_15h53.45.747,solo,2023.2.2,60.04091187739877,2023-11-17 15h53.59.642674 +0530,
C:\Users\twara\Downloads\Expressionless Emoji [Free Download IOS Emojis].png,C:\Users\twara\Downloads\Blushed Smiling Emoji [Free Download IOS Emojis].png,-0.3,down,c,0,6,6,30,13.519930399997975,,,,,,,,,13.488170299999183,13.519930399997975,14.003572400000849,14.003572400000849,14.503382899998542,14.503382899998542,14.787361599999713,15.003673699997307,15.18667110000024,15.270994700000301,down,1,0.259556099998008,None,,,,,4,001,2023-11-17_15h53.45.747,solo,2023.2.2,60.04091187739877,2023-11-17 15h53.59.642674 +0530,
C:\Users\twara\Downloads\Worried Emoji [Free Download IOS Emojis].png,C:\Users\twara\Downloads\Tears Emoji [Free Download iPhone Emojis in PNG].png,-0.3,down,c,0,7,7,31,15.320095899998705,,,,,,,,,15.27156130000003,15.320095899998705,15.787251800000377,15.787251800000377,16.287019299998065,16.287019299998065,16.586891999999352,16.787002099998062,16.98667419999765,17.054323500000464,down,1,0.26229850000163424,None,,,,,4,001,2023-11-17_15h53.45.747,solo,2023.2.2,60.04091187739877,2023-11-17 15h53.59.642674 +0530,
C:\Users\twara\Downloads\Neutral Emoji [Free Download iPhone Emojis].png,C:\Users\twara\Downloads\Smiling Emoji [Download IOS Smiling Emojis].png,-0.3,down,c,0,8,8,25,17.08744469999874,,,,,,,,,17.054776499997388,17.08744469999874,17.57015490000049,17.57015490000049,18.069946799998434,18.069946799998434,18.370169099998748,18.570024199998443,18.770147799998085,19.054003599998396,down,1,0.4824501000002783,None,,,,,4,001,2023-11-17_15h53.45.747,solo,2023.2.2,60.04091187739877,2023-11-17 15h53.59.642674 +0530,
C:\Users\twara\Downloads\Hugging Emoji [Download iPhone Emojis].png,C:\Users\twara\Downloads\Neutral Emoji [Free Download iPhone Emojis].png,-0.3,down,ic,0,9,9,13,19.10388089999833,,,,,,,,,19.05436069999996,19.10388089999833,19.55367219999971,19.55367219999971,20.070070699999633,20.070070699999633,20.353067899999587,20.553727799997432,20.753399499997613,21.221126899999945,down,1,0.6519583000008424,None,,,,,4,001,2023-11-17_15h53.45.747,solo,2023.2.2,60.04091187739877,2023-11-17 15h53.59.642674 +0530,
C:\Users\twara\Downloads\Laughing Emoji [Free Download IOS Emojis].png,C:\Users\twara\Downloads\Confused Emoji [Download iPhone Emojis].png,-0.3,down,ic,0,10,10,12,21.25422360000084,,,,,,,,,21.221669499998825,21.25422360000084,21.736976699998195,21.736976699998195,22.23679749999792,22.23679749999792,22.536880999999994,22.736788700000034,22.936796399997547,23.287879199997406,down,1,0.5351574999986042,None,,,,,4,001,2023-11-17_15h53.45.747,solo,2023.2.2,60.04091187739877,2023-11-17 15h53.59.642674 +0530,
C:\Users\twara\Downloads\Hugging Emoji [Download iPhone Emojis].png,C:\Users\twara\Downloads\Neutral Emoji [Free Download iPhone Emojis].png,0.3,up,c,0,11,11,5,23.320890200000576,,,,,,,,,23.288292099998216,23.320890200000576,23.80348310000045,23.80348310000045,24.303430600000866,24.303430600000866,24.603662599998643,24.8031235999988,25.0036274999984,25.288193699998374,up,1,0.47188420000020415,None,,,,,4,001,2023-11-17_15h53.45.747,solo,2023.2.2,60.04091187739877,2023-11-17 15h53.59.642674 +0530,
C:\Users\twara\Downloads\Very Happy Emoji [Free Download IOS Emojis].png,C:\Users\twara\Downloads\Worried Emoji [Free Download IOS Emojis].png,0.3,up,c,0,12,12,3,25.32092719999855,,,,,,,,,25.28886109999803,25.32092719999855,25.803594599998178,25.803594599998178,26.303276599999663,26.303276599999663,26.60355409999829,26.803338800000347,27.003369099998963,27.237545100000716,up,1,0.42155020000063814,None,,,,,4,001,2023-11-17_15h53.45.747,solo,2023.2.2,60.04091187739877,2023-11-17 15h53.59.642674 +0530,
C:\Users\twara\Downloads\Worried Emoji [Free Download IOS Emojis].png,C:\Users\twara\Downloads\Very Happy Emoji [Free Download IOS Emojis].png,-0.3,down,c,0,13,13,27,27.269271999997727,,,,,,,,,27.237907099999575,27.269271999997727,27.753450199998042,27.753450199998042,28.252924299998995,28.252924299998995,28.553427200000442,28.75309389999893,28.953118299999915,29.32088239999939,down,1,0.5508958999998868,None,,,,,4,001,2023-11-17_15h53.45.747,solo,2023.2.2,60.04091187739877,2023-11-17 15h53.59.642674 +0530,
C:\Users\twara\Downloads\Neutral Emoji [Free Download iPhone Emojis].png,C:\Users\twara\Downloads\Smiling Emoji [Download IOS Smiling Emojis].png,0.3,up,ic,0,14,14,17,29.353392499997426,,,,,,,,,29.321270500000537,29.353392499997426,29.83724919999804,29.83724919999804,30.336574000000837,30.336574000000837,30.63665309999851,30.836397099999886,31.03642889999901,31.287335499997425,up,1,0.43776989999969373,None,,,,,4,001,2023-11-17_15h53.45.747,solo,2023.2.2,60.04091187739877,2023-11-17 15h53.59.642674 +0530,
C:\Users\twara\Downloads\Smiling With Closed Eyes Emoji [Free Download IOS Emojis].png,C:\Users\twara\Downloads\Expressionless Emoji [Free Download IOS Emojis].png,-0.3,down,ic,0,15,15,10,31.336537700000918,,,,,,,,,31.28776189999917,31.336537700000918,31.803462699997908,31.803462699997908,32.303377099997306,32.303377099997306,32.6033568999992,32.80326570000034,33.00309479999851,33.137582600000314,down,1,0.3287348000012571,None,,,,,4,001,2023-11-17_15h53.45.747,solo,2023.2.2,60.04091187739877,2023-11-17 15h53.59.642674 +0530,
C:\Users\twara\Downloads\Neutral Emoji [Free Download iPhone Emojis].png,C:\Users\twara\Downloads\Hugging Emoji [Download iPhone Emojis].png,0.3,up,ic,0,16,16,21,33.17061140000078,,,,,,,,,33.13800640000045,33.17061140000078,33.653325100000075,33.653325100000075,34.15341659999831,34.15341659999831,34.45328249999875,34.65292729999783,34.853226999999606,35.454237199999625,up,1,0.7935510000024806,None,,,,,4,001,2023-11-17_15h53.45.747,solo,2023.2.2,60.04091187739877,2023-11-17 15h53.59.642674 +0530,
C:\Users\twara\Downloads\Blushed Smiling Emoji [Free Download IOS Emojis].png,C:\Users\twara\Downloads\Expressionless Emoji [Free Download IOS Emojis].png,0.3,up,c,0,17,17,6,35.48718799999915,,,,,,,,,35.45468819999951,35.48718799999915,35.97015610000017,35.97015610000017,36.46937839999737,36.46937839999737,36.769941700000345,36.96986130000005,37.17003679999834,37.387235999998666,up,1,0.40622179999991204,None,,,,,4,001,2023-11-17_15h53.45.747,solo,2023.2.2,60.04091187739877,2023-11-17 15h53.59.642674 +0530,
C:\Users\twara\Downloads\Tears Emoji [Free Download iPhone Emojis in PNG].png,C:\Users\twara\Downloads\Worried Emoji [Free Download IOS Emojis].png,-0.3,down,ic,0,18,18,15,37.41957529999854,,,,,,,,,37.38780770000085,37.41957529999854,37.903577099998074,37.903577099998074,38.403143600000476,38.403143600000476,38.68664879999778,38.9032186000004,39.08647689999998,39.45395500000086,down,1,0.5361390999969444,None,,,,,4,001,2023-11-17_15h53.45.747,solo,2023.2.2,60.04091187739877,2023-11-17 15h53.59.642674 +0530,
C:\Users\twara\Downloads\Neutral Emoji [Free Download iPhone Emojis].png,C:\Users\twara\Downloads\Hugging Emoji [Download iPhone Emojis].png,-0.3,down,c,0,19,19,29,39.487303599998995,,,,,,,,,39.45432570000048,39.487303599998995,39.953213400000095,39.953213400000095,40.45310609999797,40.45310609999797,40.76975289999973,40.969828599998436,41.16986589999942,41.42060459999993,down,1,0.44096949999948265,None,,,,,4,001,2023-11-17_15h53.45.747,solo,2023.2.2,60.04091187739877,2023-11-17 15h53.59.642674 +0530,
C:\Users\twara\Downloads\Tears Emoji [Free Download iPhone Emojis in PNG].png,C:\Users\twara\Downloads\Worried Emoji [Free Download IOS Emojis].png,0.3,up,c,0,20,20,7,41.45385199999873,,,,,,,,,41.421059199998126,41.45385199999873,41.936527699999715,41.936527699999715,42.436574200000905,42.436574200000905,42.73659960000077,42.936114899999666,43.13647259999925,43.370506499999465,up,1,0.42145259999961127,None,,,,,4,001,2023-11-17_15h53.45.747,solo,2023.2.2,60.04091187739877,2023-11-17 15h53.59.642674 +0530,
C:\Users\twara\Downloads\Very Happy Emoji [Free Download IOS Emojis].png,C:\Users\twara\Downloads\Worried Emoji [Free Download IOS Emojis].png,-0.3,down,ic,0,21,21,11,43.40307960000064,,,,,,,,,43.37096439999732,43.40307960000064,43.886542199998075,43.886542199998075,44.38654619999943,44.38654619999943,44.686203999997815,44.88642339999933,45.08628119999776,45.37056909999956,down,1,0.47384600000077626,None,,,,,4,001,2023-11-17_15h53.45.747,solo,2023.2.2,60.04091187739877,2023-11-17 15h53.59.642674 +0530,
C:\Users\twara\Downloads\Blushed Smiling Emoji [Free Download IOS Emojis].png,C:\Users\twara\Downloads\Expressionless Emoji [Free Download IOS Emojis].png,-0.3,down,ic,0,22,22,14,45.40224780000062,,,,,,,,,45.370949799998925,45.40224780000062,45.886594100000366,45.886594100000366,46.38640619999933,46.38640619999933,46.68635390000054,46.88631239999813,47.08653629999753,47.287297099999705,down,1,0.3854053999966709,None,,,,,4,001,2023-11-17_15h53.45.747,solo,2023.2.2,60.04091187739877,2023-11-17 15h53.59.642674 +0530,
C:\Users\twara\Downloads\Worried Emoji [Free Download IOS Emojis].png,C:\Users\twara\Downloads\Tears Emoji [Free Download iPhone Emojis in PNG].png,0.3,up,ic,0,23,23,23,47.31956920000084,,,,,,,,,47.287722199998825,47.31956920000084,47.80320279999796,47.80320279999796,48.30302640000082,48.30302640000082,48.60289709999779,48.802553999998054,49.00296669999807,49.4376846999985,up,1,0.6338716999998724,None,,,,,4,001,2023-11-17_15h53.45.747,solo,2023.2.2,60.04091187739877,2023-11-17 15h53.59.642674 +0530,
C:\Users\twara\Downloads\Confused Emoji [Download iPhone Emojis].png,C:\Users\twara\Downloads\Happy Emoji [Download iPhone Emojis].png,0.3,up,ic,0,24,24,16,49.46960589999799,,,,,,,,,49.43815209999957,49.46960589999799,49.95307160000084,49.95307160000084,50.452809599999455,50.452809599999455,50.801907900000515,50.952540899997985,51.20278730000064,51.45475909999732,up,1,0.4989008999982616,None,,,,,4,001,2023-11-17_15h53.45.747,solo,2023.2.2,60.04091187739877,2023-11-17 15h53.59.642674 +0530,
C:\Users\twara\Downloads\Smiling Emoji [Download IOS Smiling Emojis].png,C:\Users\twara\Downloads\Neutral Emoji [Free Download iPhone Emojis].png,0.3,up,c,0,25,25,1,51.502869899999496,,,,,,,,,51.455387599999085,51.502869899999496,51.96959309999875,51.96959309999875,52.46935939999821,52.46935939999821,52.76948210000046,52.96960330000002,53.16941809999844,53.37079190000077,up,1,0.39525570000114385,None,,,,,4,001,2023-11-17_15h53.45.747,solo,2023.2.2,60.04091187739877,2023-11-17 15h53.59.642674 +0530,
C:\Users\twara\Downloads\Happy Emoji [Download iPhone Emojis].png,C:\Users\twara\Downloads\Confused Emoji [Download iPhone Emojis].png,-0.3,down,ic,0,26,26,8,53.40282529999968,,,,,,,,,53.37127789999795,53.40282529999968,53.886639500000456,53.886639500000456,54.38613379999879,54.38613379999879,54.68647720000081,54.886797499999375,55.08587439999974,55.50372829999833,down,1,0.6016095000013593,None,,,,,4,001,2023-11-17_15h53.45.747,solo,2023.2.2,60.04091187739877,2023-11-17 15h53.59.642674 +0530,
C:\Users\twara\Downloads\Smiling With Closed Eyes Emoji [Free Download IOS Emojis].png,C:\Users\twara\Downloads\Expressionless Emoji [Free Download IOS Emojis].png,0.3,up,c,0,27,27,2,55.53541589999804,,,,,,,,,55.50418669999999,55.53541589999804,56.00311619999775,56.00311619999775,56.50277119999737,56.50277119999737,56.81932980000056,57.01945599999817,57.219575299997814,57.570899700000155,up,1,0.5348335999988194,None,,,,,4,001,2023-11-17_15h53.45.747,solo,2023.2.2,60.04091187739877,2023-11-17 15h53.59.642674 +0530,
C:\Users\twara\Downloads\Expressionless Emoji [Free Download IOS Emojis].png,C:\Users\twara\Downloads\Smiling With Closed Eyes Emoji [Free Download IOS Emojis].png,-0.3,down,c,0,28,28,26,57.60207739999896,,,,,,,,,57.571253300000535,57.60207739999896,58.08640630000082,58.08640630000082,58.58612689999791,58.58612689999791,58.886192399997526,59.086094300000696,59.286040999999386,59.77032010000039,down,1,0.6788851999990584,None,,,,,4,001,2023-11-17_15h53.45.747,solo,2023.2.2,60.04091187739877,2023-11-17 15h53.59.642674 +0530,
C:\Users\twara\Downloads\Confused Emoji [Download iPhone Emojis].png,C:\Users\twara\Downloads\Laughing Emoji [Free Download IOS Emojis].png,0.3,up,ic,0,29,29,20,59.802037599998584,,,,,,,,,59.770705899998575,59.802037599998584,60.2863909000007,60.2863909000007,60.78605779999998,60.78605779999998,61.085949000000255,61.28614000000016,61.48638700000083,61.87034499999936,up,1,0.5758214000015869,None,,,,,4,001,2023-11-17_15h53.45.747,solo,2023.2.2,60.04091187739877,2023-11-17 15h53.59.642674 +0530,
C:\Users\twara\Downloads\Laughing Emoji [Free Download IOS Emojis].png,C:\Users\twara\Downloads\Confused Emoji [Download iPhone Emojis].png,0.3,up,c,0,30,30,4,61.90198120000059,,,,,,,,,61.8707957000006,61.90198120000059,62.38631299999906,62.38631299999906,62.885946700000204,62.885946700000204,63.18596120000075,63.38603249999869,63.586026900000434,63.920289599998796,up,1,0.5321425000001909,None,,,,,4,001,2023-11-17_15h53.45.747,solo,2023.2.2,60.04091187739877,2023-11-17 15h53.59.642674 +0530,
C:\Users\twara\Downloads\Expressionless Emoji [Free Download IOS Emojis].png,C:\Users\twara\Downloads\Smiling With Closed Eyes Emoji [Free Download IOS Emojis].png,0.3,up,ic,0,31,31,18,63.95196479999868,,,,,,,,,63.92066879999766,63.95196479999868,64.41960779999863,64.41960779999863,64.91930549999961,64.91930549999961,65.23628819999794,65.41941999999835,65.6360160999975,65.9205922000001,up,1,0.49502880000000005,None,,,,,4,001,2023-11-17_15h53.45.747,solo,2023.2.2,60.04091187739877,2023-11-17 15h53.59.642674 +0530,
,,,,,,,,,,,,,,,,,,,,,,,,,,,,,,,,65.92099109999981,65.93601049999779,66.93604689999847,66.9200462000008,,,,,,,,
