image1,image2,pos,corr_resp,c_ic,trials.thisRepN,trials.thisTrialN,trials.thisN,trials.thisIndex,thisRow.t,notes,instructions.started,text.started,key_resp_2.started,instructions.stopped,key_resp_2.keys,key_resp_2.rt,key_resp_2.duration,trial.started,fixation.started,image.started,image_2.started,image.stopped,image_2.stopped,cue.started,key_resp.started,cue.stopped,trial.stopped,key_resp.keys,key_resp.corr,key_resp.rt,key_resp.duration,thankyou.started,text_2.started,text_2.stopped,thankyou.stopped,participant,session,date,expName,psychopyVersion,frameRate,expStart,
,,,,,,,,,,,0.06851040000037756,0.08790460000091116,0.08790460000091116,7.3030163000003085,space,7.204232399999455,None,,,,,,,,,,,,,,,,,,,5,001,2023-11-10_19h07.06.136,solo,2023.2.2,60.04033509801768,2023-11-10 19h07.15.043635 +0530,
C:\Users\twara\Downloads\Smiling Emoji [Download IOS Smiling Emojis].png,C:\Users\twara\Downloads\Neutral Emoji [Free Download iPhone Emojis].png,-0.3,down,ic,0,0,0,9,7.38390690000233,,,,,,,,,7.331341000000975,7.38390690000233,7.834341699999641,7.834341699999641,8.334659300002386,8.334659300002386,8.6031167000001,8.802965000002587,9.002739800002018,9.120673199999146,down,1,0.31231340000158525,None,,,,,5,001,2023-11-10_19h07.06.136,solo,2023.2.2,60.04033509801768,2023-11-10 19h07.15.043635 +0530,
C:\Users\twara\Downloads\Blushed Smiling Emoji [Free Download IOS Emojis].png,C:\Users\twara\Downloads\Expressionless Emoji [Free Download IOS Emojis].png,0.3,up,c,0,1,1,6,9.185834700001578,,,,,,,,,9.12232270000095,9.185834700001578,9.635904200000368,9.635904200000368,10.135046100000181,10.135046100000181,10.435218200000236,10.63638130000254,10.834978099999717,10.836319500001991,up,1,0.19463589999941178,None,,,,,5,001,2023-11-10_19h07.06.136,solo,2023.2.2,60.04033509801768,2023-11-10 19h07.15.043635 +0530,
C:\Users\twara\Downloads\Smiling With Closed Eyes Emoji [Free Download IOS Emojis].png,C:\Users\twara\Downloads\Expressionless Emoji [Free Download IOS Emojis].png,0.3,up,c,0,2,2,2,10.883431300000666,,,,,,,,,10.837226600000577,10.883431300000666,11.35148620000109,11.35148620000109,11.851356999999552,11.851356999999552,12.151467800002138,12.351683100001537,12.551639500001329,12.553484000000026,up,1,0.20025389999864274,None,,,,,5,001,2023-11-10_19h07.06.136,solo,2023.2.2,60.04033509801768,2023-11-10 19h07.15.043635 +0530,
C:\Users\twara\Downloads\Smiling Emoji [Download IOS Smiling Emojis].png,C:\Users\twara\Downloads\Neutral Emoji [Free Download iPhone Emojis].png,0.3,up,c,0,3,3,1,12.600836300000083,,,,,,,,,12.554403599999205,12.600836300000083,13.068413100001635,13.068413100001635,13.56762670000171,13.56762670000171,13.868108999999095,14.067908799999714,14.267926799999259,14.319788000000699,up,1,0.24667649999901187,None,,,,,5,001,2023-11-10_19h07.06.136,solo,2023.2.2,60.04033509801768,2023-11-10 19h07.15.043635 +0530,
C:\Users\twara\Downloads\Very Happy Emoji [Free Download IOS Emojis].png,C:\Users\twara\Downloads\Worried Emoji [Free Download IOS Emojis].png,0.3,up,c,0,4,4,3,14.367683000000397,,,,,,,,,14.320766299999377,14.367683000000397,14.834774599999946,14.834774599999946,15.334338100001332,15.334338100001332,15.63495740000144,15.83455690000119,16.034557900002255,16.136019800000213,up,1,0.2938251000014134,None,,,,,5,001,2023-11-10_19h07.06.136,solo,2023.2.2,60.04033509801768,2023-11-10 19h07.15.043635 +0530,
C:\Users\twara\Downloads\Blushed Smiling Emoji [Free Download IOS Emojis].png,C:\Users\twara\Downloads\Expressionless Emoji [Free Download IOS Emojis].png,-0.3,down,ic,0,5,5,14,16.183543700000882,,,,,,,,,16.137028699999064,16.183543700000882,16.651548300000286,16.651548300000286,17.15134670000043,17.15134670000043,17.451009299998987,17.65135620000001,,17.75262930000099,down,1,0.0851332000020193,None,,,,,5,001,2023-11-10_19h07.06.136,solo,2023.2.2,60.04033509801768,2023-11-10 19h07.15.043635 +0530,
C:\Users\twara\Downloads\Smiling With Closed Eyes Emoji [Free Download IOS Emojis].png,C:\Users\twara\Downloads\Expressionless Emoji [Free Download IOS Emojis].png,-0.3,down,ic,0,6,6,10,17.81698519999918,,,,,,,,,17.753667900000437,17.81698519999918,18.268171200001234,18.268171200001234,18.767802599999413,18.767802599999413,19.06789750000098,19.2676919000005,19.467740500000218,19.485967900000105,down,1,0.2146160999982385,None,,,,,5,001,2023-11-10_19h07.06.136,solo,2023.2.2,60.04033509801768,2023-11-10 19h07.15.043635 +0530,
C:\Users\twara\Downloads\Worried Emoji [Free Download IOS Emojis].png,C:\Users\twara\Downloads\Tears Emoji [Free Download iPhone Emojis in PNG].png,-0.3,down,c,0,7,7,31,19.534143000000768,,,,,,,,,19.486906800000725,19.534143000000768,20.001363899998978,20.001363899998978,20.501234999999724,20.501234999999724,20.80145049999919,21.000931099999434,,21.11927690000084,down,1,0.10360660000151256,None,,,,,5,001,2023-11-10_19h07.06.136,solo,2023.2.2,60.04033509801768,2023-11-10 19h07.15.043635 +0530,
C:\Users\twara\Downloads\Tears Emoji [Free Download iPhone Emojis in PNG].png,C:\Users\twara\Downloads\Worried Emoji [Free Download IOS Emojis].png,0.3,up,c,0,8,8,7,21.16816800000015,,,,,,,,,21.120225000002392,21.16816800000015,21.63505889999942,21.63505889999942,22.134905700000672,22.134905700000672,22.434281300000293,22.634873300001345,,22.702761000000464,up,1,0.06281400000079884,None,,,,,5,001,2023-11-10_19h07.06.136,solo,2023.2.2,60.04033509801768,2023-11-10 19h07.15.043635 +0530,
C:\Users\twara\Downloads\Neutral Emoji [Free Download iPhone Emojis].png,C:\Users\twara\Downloads\Smiling Emoji [Download IOS Smiling Emojis].png,-0.3,down,c,0,9,9,25,22.750987100000202,,,,,,,,,22.703639200000907,22.750987100000202,23.21818390000044,23.21818390000044,23.717926199999056,23.717926199999056,24.01757709999947,24.21772409999903,24.4176206000011,24.419110800001363,down,1,0.1903511000018625,None,,,,,5,001,2023-11-10_19h07.06.136,solo,2023.2.2,60.04033509801768,2023-11-10 19h07.15.043635 +0530,
C:\Users\twara\Downloads\Worried Emoji [Free Download IOS Emojis].png,C:\Users\twara\Downloads\Very Happy Emoji [Free Download IOS Emojis].png,-0.3,down,c,0,10,10,27,24.467620700001135,,,,,,,,,24.42012590000013,24.467620700001135,24.934821000002557,24.934821000002557,25.434575900002528,25.434575900002528,25.734261000001425,25.93487069999901,,26.085990800002037,down,1,0.14964929999769083,None,,,,,5,001,2023-11-10_19h07.06.136,solo,2023.2.2,60.04033509801768,2023-11-10 19h07.15.043635 +0530,
C:\Users\twara\Downloads\Hugging Emoji [Download iPhone Emojis].png,C:\Users\twara\Downloads\Neutral Emoji [Free Download iPhone Emojis].png,-0.3,down,ic,0,11,11,13,26.13490069999898,,,,,,,,,26.086915800002316,26.13490069999898,26.60136229999989,26.60136229999989,27.100937999999587,27.100937999999587,27.400881699999445,27.60107910000079,,27.686006100000668,down,1,0.07920469999953639,None,,,,,5,001,2023-11-10_19h07.06.136,solo,2023.2.2,60.04033509801768,2023-11-10 19h07.15.043635 +0530,
C:\Users\twara\Downloads\Neutral Emoji [Free Download iPhone Emojis].png,C:\Users\twara\Downloads\Hugging Emoji [Download iPhone Emojis].png,-0.3,down,c,0,12,12,29,27.751659800000198,,,,,,,,,27.686876100000518,27.751659800000198,28.20129110000198,28.20129110000198,28.70090540000092,28.70090540000092,29.00116479999997,29.200521599999774,,29.317828300001565,down,1,0.11047640000106185,None,,,,,5,001,2023-11-10_19h07.06.136,solo,2023.2.2,60.04033509801768,2023-11-10 19h07.15.043635 +0530,
C:\Users\twara\Downloads\Expressionless Emoji [Free Download IOS Emojis].png,C:\Users\twara\Downloads\Smiling With Closed Eyes Emoji [Free Download IOS Emojis].png,0.3,up,ic,0,13,13,18,29.368148100002145,,,,,,,,,29.318368200001714,29.368148100002145,29.83382750000237,29.83382750000237,30.334204700000555,30.334204700000555,30.617285700001958,30.81701030000113,,30.96806650000144,up,1,0.1485872000012023,None,,,,,5,001,2023-11-10_19h07.06.136,solo,2023.2.2,60.04033509801768,2023-11-10 19h07.15.043635 +0530,
C:\Users\twara\Downloads\Expressionless Emoji [Free Download IOS Emojis].png,C:\Users\twara\Downloads\Blushed Smiling Emoji [Free Download IOS Emojis].png,0.3,up,ic,0,14,14,22,30.999695300000894,,,,,,,,,30.968549000001076,30.999695300000894,31.46785219999947,31.46785219999947,31.967598900002486,31.967598900002486,32.26805650000097,32.46774050000022,,32.569541000000754,up,1,0.0964696000010008,None,,,,,5,001,2023-11-10_19h07.06.136,solo,2023.2.2,60.04033509801768,2023-11-10 19h07.15.043635 +0530,
C:\Users\twara\Downloads\Happy Emoji [Download iPhone Emojis].png,C:\Users\twara\Downloads\Confused Emoji [Download iPhone Emojis].png,-0.3,down,ic,0,15,15,8,32.61665600000197,,,,,,,,,32.570834599999216,32.61665600000197,33.08442280000236,33.08442280000236,33.58416330000182,33.58416330000182,33.88402100000167,34.084403299999394,,34.202519099999336,down,1,0.10291380000126082,None,,,,,5,001,2023-11-10_19h07.06.136,solo,2023.2.2,60.04033509801768,2023-11-10 19h07.15.043635 +0530,
C:\Users\twara\Downloads\Confused Emoji [Download iPhone Emojis].png,C:\Users\twara\Downloads\Laughing Emoji [Free Download IOS Emojis].png,-0.3,down,c,0,16,16,28,34.26677790000031,,,,,,,,,34.2034848000003,34.26677790000031,34.71777590000056,34.71777590000056,35.217397500000516,35.217397500000516,35.51783889999933,35.73133020000023,,35.86919019999914,up,0,0.1346497000013187,None,,,,,5,001,2023-11-10_19h07.06.136,solo,2023.2.2,60.04033509801768,2023-11-10 19h07.15.043635 +0530,
C:\Users\twara\Downloads\Laughing Emoji [Free Download IOS Emojis].png,C:\Users\twara\Downloads\Confused Emoji [Download iPhone Emojis].png,0.3,up,c,0,17,17,4,35.91621660000237,,,,,,,,,35.870343099999445,35.91621660000237,36.38447730000189,36.38447730000189,36.884120300001086,36.884120300001086,37.184268000000884,37.38407290000032,,37.50267680000252,up,1,0.10339110000131768,None,,,,,5,001,2023-11-10_19h07.06.136,solo,2023.2.2,60.04033509801768,2023-11-10 19h07.15.043635 +0530,
C:\Users\twara\Downloads\Laughing Emoji [Free Download IOS Emojis].png,C:\Users\twara\Downloads\Confused Emoji [Download iPhone Emojis].png,-0.3,down,ic,0,18,18,12,37.54996179999944,,,,,,,,,37.50350430000253,37.54996179999944,38.01767420000033,38.01767420000033,38.51804190000257,38.51804190000257,38.81752290000077,39.018250299999636,39.217448899999,41.41941829999996,down,1,2.3959485000013956,None,,,,,5,001,2023-11-10_19h07.06.136,solo,2023.2.2,60.04033509801768,2023-11-10 19h07.15.043635 +0530,
C:\Users\twara\Downloads\Expressionless Emoji [Free Download IOS Emojis].png,C:\Users\twara\Downloads\Blushed Smiling Emoji [Free Download IOS Emojis].png,-0.3,down,c,0,19,19,30,41.466266300001735,,,,,,,,,41.42045190000135,41.466266300001735,41.9342902999997,41.9342902999997,42.4343841000009,42.4343841000009,42.7342200000021,42.93433740000182,43.13402180000048,43.1521066000023,down,1,0.2119821000014781,None,,,,,5,001,2023-11-10_19h07.06.136,solo,2023.2.2,60.04033509801768,2023-11-10 19h07.15.043635 +0530,
C:\Users\twara\Downloads\Confused Emoji [Download iPhone Emojis].png,C:\Users\twara\Downloads\Happy Emoji [Download iPhone Emojis].png,-0.3,down,c,0,20,20,24,43.19994670000233,,,,,,,,,43.1530285000008,43.19994670000233,43.668039600001066,43.668039600001066,44.16745390000142,44.16745390000142,44.46746540000095,44.66760720000093,,44.68608519999907,down,1,0.002024000001256354,None,,,,,5,001,2023-11-10_19h07.06.136,solo,2023.2.2,60.04033509801768,2023-11-10 19h07.15.043635 +0530,
C:\Users\twara\Downloads\Worried Emoji [Free Download IOS Emojis].png,C:\Users\twara\Downloads\Very Happy Emoji [Free Download IOS Emojis].png,0.3,up,ic,0,21,21,19,44.7501121000023,,,,,,,,,44.68692060000103,44.7501121000023,45.201254899999185,45.201254899999185,45.700525899999775,45.700525899999775,46.003811999999016,46.20048400000087,,46.235946100001456,down,0,0.027473900001496077,None,,,,,5,001,2023-11-10_19h07.06.136,solo,2023.2.2,60.04033509801768,2023-11-10 19h07.15.043635 +0530,
C:\Users\twara\Downloads\Confused Emoji [Download iPhone Emojis].png,C:\Users\twara\Downloads\Laughing Emoji [Free Download IOS Emojis].png,0.3,up,ic,0,22,22,20,46.2999376000007,,,,,,,,,46.23709339999914,46.2999376000007,46.750953099999606,46.750953099999606,47.25076489999992,47.25076489999992,47.55091919999904,47.75316480000038,47.95061910000004,47.95285890000014,up,1,0.19813360000262037,None,,,,,5,001,2023-11-10_19h07.06.136,solo,2023.2.2,60.04033509801768,2023-11-10 19h07.15.043635 +0530,
C:\Users\twara\Downloads\Tears Emoji [Free Download iPhone Emojis in PNG].png,C:\Users\twara\Downloads\Worried Emoji [Free Download IOS Emojis].png,-0.3,down,ic,0,23,23,15,48.000450399998954,,,,,,,,,47.95382400000017,48.000450399998954,48.46799800000008,48.46799800000008,48.96746990000247,48.96746990000247,49.26717560000179,49.467260699999315,49.66783460000079,50.968897700000525,down,1,1.4862634999990405,None,,,,,5,001,2023-11-10_19h07.06.136,solo,2023.2.2,60.04033509801768,2023-11-10 19h07.15.043635 +0530,
C:\Users\twara\Downloads\Happy Emoji [Download iPhone Emojis].png,C:\Users\twara\Downloads\Confused Emoji [Download iPhone Emojis].png,0.3,up,c,0,24,24,0,51.01735710000139,,,,,,,,,50.96993900000234,51.01735710000139,51.48447590000069,51.48447590000069,51.983957600001304,51.983957600001304,52.28414640000119,52.4839744000019,52.71744089999993,52.66939740000089,up,1,0.17137619999994058,None,,,,,5,001,2023-11-10_19h07.06.136,solo,2023.2.2,60.04033509801768,2023-11-10 19h07.15.043635 +0530,
C:\Users\twara\Downloads\Neutral Emoji [Free Download iPhone Emojis].png,C:\Users\twara\Downloads\Hugging Emoji [Download iPhone Emojis].png,0.3,up,ic,0,25,25,21,52.71744089999993,,,,,,,,,52.67039289999957,52.71744089999993,53.184384000000136,53.184384000000136,53.68408510000154,53.68408510000154,53.98383630000171,54.18411120000019,,54.35238759999993,up,1,0.15974930000083987,None,,,,,5,001,2023-11-10_19h07.06.136,solo,2023.2.2,60.04033509801768,2023-11-10 19h07.15.043635 +0530,
C:\Users\twara\Downloads\Expressionless Emoji [Free Download IOS Emojis].png,C:\Users\twara\Downloads\Smiling With Closed Eyes Emoji [Free Download IOS Emojis].png,-0.3,down,c,0,26,26,26,54.418008000000555,,,,,,,,,54.35360850000143,54.418008000000555,54.8675613000014,54.8675613000014,55.367281800001365,55.367281800001365,55.66821540000092,55.86714770000253,,55.93585030000031,down,1,0.05874760000006063,None,,,,,5,001,2023-11-10_19h07.06.136,solo,2023.2.2,60.04033509801768,2023-11-10 19h07.15.043635 +0530,
C:\Users\twara\Downloads\Neutral Emoji [Free Download iPhone Emojis].png,C:\Users\twara\Downloads\Smiling Emoji [Download IOS Smiling Emojis].png,0.3,up,ic,0,27,27,17,55.98338639999929,,,,,,,,,55.93683990000136,55.98338639999929,56.45083370000066,56.45083370000066,56.95053460000054,56.95053460000054,57.2504571999998,57.45059330000004,,57.50239800000054,up,1,0.03532869999980903,None,,,,,5,001,2023-11-10_19h07.06.136,solo,2023.2.2,60.04033509801768,2023-11-10 19h07.15.043635 +0530,
C:\Users\twara\Downloads\Worried Emoji [Free Download IOS Emojis].png,C:\Users\twara\Downloads\Tears Emoji [Free Download iPhone Emojis in PNG].png,0.3,up,ic,0,28,28,23,57.55126039999959,,,,,,,,,57.50339290000193,57.55126039999959,58.0170958000017,58.0170958000017,58.51713380000001,58.51713380000001,58.81749309999941,59.017193899999256,,59.03540409999914,down,0,0.004525700001977384,None,,,,,5,001,2023-11-10_19h07.06.136,solo,2023.2.2,60.04033509801768,2023-11-10 19h07.15.043635 +0530,
C:\Users\twara\Downloads\Very Happy Emoji [Free Download IOS Emojis].png,C:\Users\twara\Downloads\Worried Emoji [Free Download IOS Emojis].png,-0.3,down,ic,0,29,29,11,59.083220900000015,,,,,,,,,59.036350099999254,59.083220900000015,59.53627110000161,59.53627110000161,60.05086500000107,60.05086500000107,60.35053590000098,60.550519299998996,,60.71861290000015,down,1,0.15079890000197338,None,,,,,5,001,2023-11-10_19h07.06.136,solo,2023.2.2,60.04033509801768,2023-11-10 19h07.15.043635 +0530,
C:\Users\twara\Downloads\Confused Emoji [Download iPhone Emojis].png,C:\Users\twara\Downloads\Happy Emoji [Download iPhone Emojis].png,0.3,up,ic,0,30,30,16,60.76622459999999,,,,,,,,,60.71939140000177,60.76622459999999,61.23360930000126,61.23360930000126,61.73371240000051,61.73371240000051,62.033223800001,62.233395300001575,,62.30124649999925,up,1,0.05547630000000936,None,,,,,5,001,2023-11-10_19h07.06.136,solo,2023.2.2,60.04033509801768,2023-11-10 19h07.15.043635 +0530,
C:\Users\twara\Downloads\Hugging Emoji [Download iPhone Emojis].png,C:\Users\twara\Downloads\Neutral Emoji [Free Download iPhone Emojis].png,0.3,up,c,0,31,31,5,62.35070730000007,,,,,,,,,62.30202090000239,62.35070730000007,62.81701679999969,62.81701679999969,63.316972700002225,63.316972700002225,63.61662670000078,63.81728550000116,64.01687959999981,64.0354370999994,up,1,0.21199119999801042,None,,,,,5,001,2023-11-10_19h07.06.136,solo,2023.2.2,60.04033509801768,2023-11-10 19h07.15.043635 +0530,
,,,,,,,,,,,,,,,,,,,,,,,,,,,,,,,,64.03606560000117,64.05036960000143,65.05022780000218,65.03430370000206,,,,,,,,
